{"resourceType":"Bundle","id":"61835a9370025c00014cd78a","meta":{"profile":["http://hl7.org/fhir/StructureDefinition/bundle"]},"total":4,"entry":[{"resource":{"resourceType":"Composition","id":"61835a9370025c00014cd78b","meta":{"profile":["https://www.hl7.org/fhir/composition"]},"text":{},"extension":[{"valueInteger":1}],"identifier":{"value":"51c6aba8-82bb-42ff-a23c-b62740e412e1"},"date":"201308170000-0400","type":{"system":"2.16.840.1.113883.6.1","code":"75619-7","display":"National Ambulatory Medical Care Survey"},"status":"preliminary","subject":{"reference":"Patient/61835a9370025c00014cd78c"},"encounter":{"reference":"Encounter/61835a9370025c00014cd78e"},"author":[{"reference":"Organization/61835a9370025c00014cd78d"}],"title":"National Ambulatory Medical Care Survey: Emergency Department Encounter (NHCS-ED, NHAMCS-ED) (V2)","confidentiality":"N"}},{"resource":{"resourceType":"Patient","id":"61835a9370025c00014cd78c","meta":{"profile":["https://www.hl7.org/fhir/patient"]},"text":{}}},{"resource":{"resourceType":"Organization","id":"61835a9370025c00014cd78d","meta":{"profile":["https://www.hl7.org/fhir/organization"]},"text":{}}},{"resource":{"resourceType":"Encounter","id":"61835a9370025c00014cd78e","meta":{"profile":["https://www.hl7.org/fhir/encounter"]},"text":{}}}]}
